onset	duration	trial_type	response_time	choice	outcome	PE	Value_c	Value1	Value2	W1	W2	W3	stim_1	valence_1	setting_1	genre_1	stim_2	valence_2	setting_2	genre_2
4.017	0.000	self	2.755	2	0.000	0.000	0.000	0.000	0.000	0.000	0.000	0.000	26	negative	futuristic	romance	15	positive	futuristic	action
17.100	0.000	self	2.370	1	1.000	1.000	0.000	0.000	0.000	0.000	0.000	0.000	5	positive	historical	action	14	positive	futuristic	action
28.433	0.000	self	2.234	1	1.000	0.989	0.011	0.011	0.011	0.011	0.011	-0.011	3	positive	historical	romance	15	positive	futuristic	action
40.267	0.000	self	1.843	1	0.000	0.045	-0.045	-0.045	0.045	0.022	0.022	-0.000	30	negative	futuristic	action	4	positive	historical	romance
54.383	0.000	self	2.455	1	0.000	-0.045	0.045	0.045	0.001	0.022	0.022	-0.001	5	positive	historical	action	24	negative	historical	action
66.383	0.000	self	2.303	1	1.000	1.043	-0.043	-0.043	0.000	0.021	0.021	-0.000	30	negative	futuristic	action	15	positive	futuristic	action
78.267	0.000	self	NaN	NaN	0.000	NaN	NaN	NaN	NaN	NaN	NaN	NaN	32	negative	futuristic	action	23	negative	historical	action
92.050	0.000	self	1.965	2	0.000	0.012	-0.012	0.007	-0.012	0.010	0.010	-0.012	3	positive	historical	romance	9	positive	futuristic	romance
105.017	0.000	self	1.725	1	1.000	0.969	0.031	0.031	-0.012	0.010	0.010	-0.012	5	positive	historical	action	11	positive	futuristic	romance
116.900	0.000	self	2.083	2	1.000	1.064	-0.064	-0.022	-0.064	0.021	0.021	-0.023	9	positive	futuristic	romance	27	negative	futuristic	romance
129.950	0.000	self	2.339	2	0.000	0.007	-0.007	0.007	-0.007	0.009	0.008	-0.011	4	positive	historical	romance	32	negative	futuristic	action
142.850	0.000	self	2.104	1	1.000	0.972	0.028	0.028	0.006	0.009	0.008	-0.011	5	positive	historical	action	4	positive	historical	romance
153.200	0.000	self	1.591	1	1.000	0.978	0.022	0.022	-0.017	0.020	0.019	-0.022	24	negative	historical	action	30	negative	futuristic	action
166.333	0.000	self	1.895	2	1.000	0.945	0.055	-0.072	0.055	0.009	0.030	-0.033	26	negative	futuristic	romance	24	negative	historical	action
178.267	0.000	self	NaN	NaN	0.000	NaN	NaN	NaN	NaN	NaN	NaN	NaN	6	positive	historical	action	24	negative	historical	action
189.884	0.000	self	NaN	NaN	0.000	NaN	NaN	NaN	NaN	NaN	NaN	NaN	32	negative	futuristic	action	18	negative	historical	romance
202.433	0.000	self	2.405	2	1.000	0.913	0.087	0.000	0.087	-0.002	0.041	-0.044	14	positive	futuristic	action	23	negative	historical	action
214.100	0.000	self	1.519	1	0.000	-0.093	0.093	0.093	0.010	-0.012	0.051	-0.054	6	positive	historical	action	18	negative	historical	romance
226.483	0.000	self	2.706	2	0.000	0.090	-0.090	0.011	-0.090	-0.013	0.050	-0.053	18	negative	historical	romance	27	negative	futuristic	romance
239.133	0.000	self	1.391	2	1.000	0.983	0.017	-0.087	0.017	-0.014	0.049	-0.052	26	negative	futuristic	romance	32	negative	futuristic	action
252.000	0.000	self	1.254	2	1.000	1.050	-0.050	0.076	-0.050	-0.026	0.038	-0.063	6	positive	historical	action	4	positive	historical	romance
264.150	0.000	self	1.733	2	1.000	0.913	0.087	0.115	0.087	-0.014	0.050	-0.051	23	negative	historical	action	6	positive	historical	action
277.433	0.000	self	1.836	1	1.000	0.875	0.125	0.125	-0.118	-0.003	0.060	-0.061	23	negative	historical	action	26	negative	futuristic	romance
289.417	0.000	self	1.747	2	1.000	0.845	0.155	-0.128	0.155	-0.013	0.070	-0.071	27	negative	futuristic	romance	24	negative	historical	action
299.750	0.000	self	1.499	2	1.000	0.978	0.022	-0.022	0.022	-0.023	0.080	-0.081	15	positive	futuristic	action	18	negative	historical	romance
312.150	0.000	self	1.330	2	0.000	-0.127	0.127	0.195	0.127	-0.034	0.091	-0.070	23	negative	historical	action	5	positive	historical	action
325.250	0.000	self	2.958	2	0.000	-0.057	0.057	0.193	0.057	-0.035	0.090	-0.068	23	negative	historical	action	18	negative	historical	romance
338.600	0.000	self	NaN	NaN	0.000	NaN	NaN	NaN	NaN	NaN	NaN	NaN	27	negative	futuristic	romance	3	positive	historical	romance
350.383	0.000	self	NaN	NaN	0.000	NaN	NaN	NaN	NaN	NaN	NaN	NaN	27	negative	futuristic	romance	17	negative	historical	romance
362.350	0.000	self	1.763	2	0.000	0.193	-0.193	-0.055	-0.193	-0.035	0.089	-0.069	15	positive	futuristic	action	11	positive	futuristic	romance
374.383	0.000	self	1.571	1	1.000	1.013	-0.013	-0.013	-0.121	-0.033	0.087	-0.067	3	positive	historical	romance	26	negative	futuristic	romance
385.200	0.000	self	1.198	2	0.000	-0.175	0.175	0.064	0.175	-0.021	0.098	-0.055	17	negative	historical	romance	24	negative	historical	action
397.817	0.000	self	1.105	2	0.000	-0.024	0.024	0.169	0.024	-0.019	0.096	-0.053	24	negative	historical	action	4	positive	historical	romance
411.017	0.000	self	1.741	2	1.000	0.938	0.062	-0.169	0.062	-0.019	0.096	-0.054	9	positive	futuristic	romance	17	negative	historical	romance
424.650	0.000	self	1.341	2	1.000	0.820	0.180	-0.094	0.180	-0.030	0.107	-0.043	15	positive	futuristic	action	23	negative	historical	action
435.867	0.000	self	1.789	2	1.000	1.129	-0.129	-0.024	-0.129	-0.039	0.116	-0.052	30	negative	futuristic	action	27	negative	futuristic	romance
446.783	0.000	self	2.142	1	0.000	0.116	-0.116	-0.116	-0.195	-0.052	0.103	-0.040	14	positive	futuristic	action	11	positive	futuristic	romance
460.067	0.000	self	1.429	1	0.000	0.010	-0.010	-0.010	-0.092	-0.051	0.102	-0.041	32	negative	futuristic	action	27	negative	futuristic	romance
471.000	0.000	self	NaN	NaN	0.000	NaN	NaN	NaN	NaN	NaN	NaN	NaN	11	positive	futuristic	romance	32	negative	futuristic	action
483.133	0.000	self	1.535	2	1.000	0.990	0.010	-0.193	0.010	-0.051	0.102	-0.041	11	positive	futuristic	romance	3	positive	historical	romance
497.150	0.000	self	1.228	2	1.000	0.897	0.103	-0.103	0.103	-0.040	0.113	-0.030	27	negative	futuristic	romance	5	positive	historical	action
510.850	0.000	self	2.407	2	0.000	0.192	-0.192	-0.054	-0.192	-0.029	0.123	-0.040	30	negative	futuristic	action	11	positive	futuristic	romance
522.933	0.000	self	1.408	2	1.000	0.869	0.131	0.056	0.131	-0.027	0.121	-0.038	3	positive	historical	romance	5	positive	historical	action
534.900	0.000	self	2.142	1	1.000	1.066	-0.066	-0.066	-0.101	-0.017	0.131	-0.048	32	negative	futuristic	action	14	positive	futuristic	action
548.483	0.000	self	1.925	2	1.000	0.911	0.089	0.029	0.089	-0.030	0.119	-0.060	4	positive	historical	romance	18	negative	historical	romance
560.533	0.000	self	1.306	2	1.000	0.960	0.040	-0.119	0.040	-0.040	0.129	-0.049	14	positive	futuristic	action	3	positive	historical	romance
573.217	0.000	self	2.399	1	1.000	0.851	0.149	0.149	-0.149	-0.029	0.140	-0.038	6	positive	historical	action	27	negative	futuristic	romance
585.733	0.000	self	1.451	1	1.000	0.879	0.121	0.121	-0.217	-0.019	0.149	-0.048	18	negative	historical	romance	11	positive	futuristic	romance
597.733	0.000	self	1.029	2	1.000	0.849	0.151	-0.151	0.151	-0.029	0.159	-0.038	14	positive	futuristic	action	18	negative	historical	romance
609.183	0.000	self	0.958	2	1.000	0.898	0.102	-0.158	0.102	-0.039	0.169	-0.028	26	negative	futuristic	romance	4	positive	historical	romance
620.633	0.000	self	1.492	1	1.000	0.810	0.190	0.190	-0.190	-0.029	0.179	-0.018	17	negative	historical	romance	15	positive	futuristic	action
633.117	0.000	self	2.375	2	1.000	0.783	0.217	-0.159	0.217	-0.038	0.188	-0.009	26	negative	futuristic	romance	17	negative	historical	romance
645.617	0.000	self	1.315	1	1.000	0.756	0.244	0.244	-0.151	-0.047	0.197	-0.000	23	negative	historical	action	27	negative	futuristic	romance
655.917	0.000	self	1.356	2	0.000	0.270	-0.270	-0.159	-0.270	-0.055	0.206	-0.009	26	negative	futuristic	romance	11	positive	futuristic	romance
668.317	0.000	self	1.177	2	1.000	0.751	0.249	-0.261	0.249	-0.052	0.203	-0.006	9	positive	futuristic	romance	18	negative	historical	romance
678.700	0.000	self	1.665	2	1.000	0.731	0.269	0.153	0.269	-0.061	0.211	0.003	3	positive	historical	romance	24	negative	historical	action
